Folder: out/Scaling_Pyrolysis

Note: Scaling_Pyrolysis/RISE_pvc-pvc-14_git.txt
FDS-6.9.1-551-g29a8da4-master

File: FSRI_XPS_Foam_Board_devc.csv
s,C,kW/m2,C,kW/m2,C,kW/m2
Time,"WALL TEMPERATURE-CONE_27p07_025","HRRPUA-CONE_27p07_025","WALL TEMPERATURE-CONE_27p07_050","HRRPUA-CONE_27p07_050","WALL TEMPERATURE-CONE_27p07_075","HRRPUA-CONE_27p07_075"
 0.000E+00, 2.700E+01, 0.000E+00, 2.700E+01, 0.000E+00, 2.700E+01, 0.000E+00
 1.000E+01, 4.528E+02, 0.000E+00, 7.221E+02, 0.000E+00, 9.904E+02, 6.207E+01
 2.000E+01, 4.834E+02, 0.000E+00, 6.511E+02, 1.221E+01, 7.628E+02, 6.045E+02
 3.000E+01, 4.906E+02, 0.000E+00, 6.558E+02, 2.672E+02, 7.657E+02, 1.096E+03
 4.000E+01, 4.941E+02, 0.000E+00, 6.581E+02, 6.321E+02, 7.673E+02, 5.562E+02
 5.000E+01, 4.957E+02, 0.000E+00, 6.592E+02, 7.633E+02, 7.681E+02, 1.366E+02
 6.000E+01, 4.969E+02, 0.000E+00, 6.601E+02, 5.330E+02, 7.687E+02, 3.386E+01
 7.000E+01, 4.977E+02, 0.000E+00, 6.607E+02, 1.840E+02, 7.692E+02, 5.399E+00
 8.000E+01, 4.984E+02, 0.000E+00, 6.612E+02, 4.053E+01, 7.696E+02, 7.585E-01
 9.000E+01, 4.989E+02, 0.000E+00, 6.616E+02, 8.761E+00, 7.699E+02, 0.000E+00
 1.000E+02, 4.994E+02, 0.000E+00, 6.620E+02, 3.813E+00, 7.702E+02, 0.000E+00
 1.100E+02, 4.998E+02, 0.000E+00, 6.623E+02, 2.634E+00, 7.705E+02, 0.000E+00
 1.200E+02, 5.002E+02, 0.000E+00, 6.625E+02, 1.551E+00, 7.707E+02, 0.000E+00
 1.300E+02, 5.005E+02, 0.000E+00, 6.628E+02, 1.008E+00, 7.709E+02, 0.000E+00
 1.400E+02, 5.008E+02, 0.000E+00, 6.630E+02, 6.213E-01, 7.711E+02, 0.000E+00
 1.500E+02, 5.010E+02, 0.000E+00, 6.632E+02, 3.057E-01, 7.713E+02, 0.000E+00
 1.600E+02, 5.012E+02, 7.250E+00, 6.633E+02, 1.872E-01, 7.714E+02, 0.000E+00
 1.700E+02, 5.014E+02, 4.830E+01, 6.635E+02, 8.031E-02, 7.715E+02, 0.000E+00
 1.800E+02, 5.016E+02, 1.474E+02, 6.636E+02, 4.342E-02, 7.716E+02, 0.000E+00
 1.900E+02, 5.018E+02, 3.239E+02, 6.638E+02, 5.698E-02, 7.717E+02, 0.000E+00
 2.000E+02, 5.019E+02, 5.263E+02, 6.639E+02, 7.194E-02, 7.718E+02, 0.000E+00
 2.100E+02, 5.021E+02, 5.514E+02, 6.640E+02, 9.701E-02, 7.719E+02, 0.000E+00
 2.200E+02, 5.022E+02, 4.034E+02, 6.641E+02, 1.240E-01, 7.720E+02, 0.000E+00
 2.300E+02, 5.023E+02, 2.329E+02, 6.642E+02, 1.230E-01, 7.721E+02, 0.000E+00
 2.400E+02, 5.024E+02, 1.205E+02, 6.643E+02, 7.008E-02, 7.722E+02, 0.000E+00
 2.500E+02, 5.025E+02, 5.730E+01, 6.643E+02, 1.710E-02, 7.722E+02, 0.000E+00
 2.600E+02, 5.026E+02, 3.005E+01, 6.644E+02, 0.000E+00, 7.723E+02, 0.000E+00
 2.700E+02, 5.027E+02, 1.738E+01, 6.645E+02, 0.000E+00, 7.723E+02, 0.000E+00
 2.800E+02, 5.028E+02, 1.299E+01, 6.645E+02, 0.000E+00, 7.724E+02, 0.000E+00
 2.900E+02, 5.028E+02, 8.646E+00, 6.646E+02, 0.000E+00, 7.724E+02, 0.000E+00
 3.000E+02, 5.029E+02, 4.304E+00, 6.647E+02, 0.000E+00, 7.725E+02, 0.000E+00
 3.100E+02, 5.030E+02, 1.600E+00, 6.647E+02, 0.000E+00, 7.725E+02, 0.000E+00
 3.200E+02, 5.030E+02, 1.149E+00, 6.648E+02, 0.000E+00, 7.726E+02, 0.000E+00
 3.300E+02, 5.031E+02, 7.121E-01, 6.648E+02, 0.000E+00, 7.726E+02, 0.000E+00
 3.400E+02, 5.032E+02, 2.754E-01, 6.648E+02, 0.000E+00, 7.726E+02, 0.000E+00
 3.500E+02, 5.032E+02, 3.725E-03, 6.649E+02, 0.000E+00, 7.727E+02, 0.000E+00
 3.600E+02, 5.033E+02, 0.000E+00, 6.649E+02, 0.000E+00, 7.727E+02, 0.000E+00
 3.700E+02, 5.033E+02, 0.000E+00, 6.649E+02, 0.000E+00, 7.727E+02, 0.000E+00
 3.800E+02, 5.033E+02, 0.000E+00, 6.650E+02, 0.000E+00, 7.728E+02, 0.000E+00
 3.900E+02, 5.034E+02, 0.000E+00, 6.650E+02, 0.000E+00, 7.728E+02, 0.000E+00
 4.000E+02, 5.034E+02, 0.000E+00, 6.650E+02, 0.000E+00, 7.728E+02, 0.000E+00
 4.100E+02, 5.034E+02, 0.000E+00, 6.651E+02, 0.000E+00, 7.728E+02, 0.000E+00
 4.200E+02, 5.035E+02, 0.000E+00, 6.651E+02, 0.000E+00, 7.729E+02, 0.000E+00
 4.300E+02, 5.035E+02, 0.000E+00, 6.651E+02, 0.000E+00, 7.729E+02, 0.000E+00
 4.400E+02, 5.035E+02, 0.000E+00, 6.651E+02, 0.000E+00, 7.729E+02, 0.000E+00
 4.500E+02, 5.036E+02, 0.000E+00, 6.652E+02, 0.000E+00, 7.729E+02, 0.000E+00
 4.600E+02, 5.036E+02, 0.000E+00, 6.652E+02, 0.000E+00, 7.729E+02, 0.000E+00
 4.700E+02, 5.036E+02, 0.000E+00, 6.652E+02, 0.000E+00, 7.729E+02, 0.000E+00
 4.800E+02, 5.036E+02, 0.000E+00, 6.652E+02, 0.000E+00, 7.730E+02, 0.000E+00
 4.900E+02, 5.037E+02, 0.000E+00, 6.652E+02, 0.000E+00, 7.730E+02, 0.000E+00
 5.000E+02, 5.037E+02, 0.000E+00, 6.652E+02, 0.000E+00, 7.730E+02, 0.000E+00
 5.100E+02, 5.037E+02, 0.000E+00, 6.653E+02, 0.000E+00, 7.730E+02, 0.000E+00
 5.200E+02, 5.037E+02, 0.000E+00, 6.653E+02, 0.000E+00, 7.730E+02, 0.000E+00
 5.300E+02, 5.037E+02, 0.000E+00, 6.653E+02, 0.000E+00, 7.730E+02, 0.000E+00
 5.400E+02, 5.037E+02, 0.000E+00, 6.653E+02, 0.000E+00, 7.730E+02, 0.000E+00
 5.500E+02, 5.038E+02, 0.000E+00, 6.653E+02, 0.000E+00, 7.730E+02, 0.000E+00
 5.600E+02, 5.038E+02, 0.000E+00, 6.653E+02, 0.000E+00, 7.730E+02, 0.000E+00
 5.700E+02, 5.038E+02, 0.000E+00, 6.653E+02, 0.000E+00, 7.731E+02, 0.000E+00
 5.800E+02, 5.038E+02, 0.000E+00, 6.653E+02, 0.000E+00, 7.731E+02, 0.000E+00
 5.900E+02, 5.038E+02, 0.000E+00, 6.653E+02, 0.000E+00, 7.731E+02, 0.000E+00
 6.000E+02, 5.038E+02, 0.000E+00, 6.654E+02, 0.000E+00, 7.731E+02, 0.000E+00
 6.100E+02, 5.038E+02, 0.000E+00, 6.654E+02, 0.000E+00, 7.731E+02, 0.000E+00
 6.200E+02, 5.038E+02, 0.000E+00, 6.654E+02, 0.000E+00, 7.731E+02, 0.000E+00
 6.300E+02, 5.039E+02, 0.000E+00, 6.654E+02, 0.000E+00, 7.731E+02, 0.000E+00
 6.400E+02, 5.039E+02, 0.000E+00, 6.654E+02, 0.000E+00, 7.731E+02, 0.000E+00
 6.500E+02, 5.039E+02, 0.000E+00, 6.654E+02, 0.000E+00, 7.731E+02, 0.000E+00
 6.600E+02, 5.039E+02, 0.000E+00, 6.654E+02, 0.000E+00, 7.731E+02, 0.000E+00
 6.700E+02, 5.039E+02, 0.000E+00, 6.654E+02, 0.000E+00, 7.731E+02, 0.000E+00
 6.800E+02, 5.039E+02, 0.000E+00, 6.654E+02, 0.000E+00, 7.731E+02, 0.000E+00
 6.900E+02, 5.039E+02, 0.000E+00, 6.654E+02, 0.000E+00, 7.731E+02, 0.000E+00
 7.000E+02, 5.039E+02, 0.000E+00, 6.654E+02, 0.000E+00, 7.731E+02, 0.000E+00
 7.100E+02, 5.039E+02, 0.000E+00, 6.654E+02, 0.000E+00, 7.731E+02, 0.000E+00
 7.200E+02, 5.039E+02, 0.000E+00, 6.654E+02, 0.000E+00, 7.731E+02, 0.000E+00
 7.300E+02, 5.039E+02, 0.000E+00, 6.654E+02, 0.000E+00, 7.731E+02, 0.000E+00
 7.400E+02, 5.039E+02, 0.000E+00, 6.654E+02, 0.000E+00, 7.731E+02, 0.000E+00
 7.500E+02, 5.039E+02, 0.000E+00, 6.654E+02, 0.000E+00, 7.731E+02, 0.000E+00
 7.600E+02, 5.039E+02, 0.000E+00, 6.654E+02, 0.000E+00, 7.731E+02, 0.000E+00
 7.700E+02, 5.039E+02, 0.000E+00, 6.654E+02, 0.000E+00, 7.731E+02, 0.000E+00
 7.800E+02, 5.039E+02, 0.000E+00, 6.654E+02, 0.000E+00, 7.732E+02, 0.000E+00
 7.900E+02, 5.039E+02, 0.000E+00, 6.654E+02, 0.000E+00, 7.732E+02, 0.000E+00
 7.970E+02, 5.040E+02, 0.000E+00, 6.654E+02, 0.000E+00, 7.732E+02, 0.000E+00